"Time (s)","Linear Acceleration x (m/s^2)","Linear Acceleration y (m/s^2)","Linear Acceleration z (m/s^2)","Absolute acceleration (m/s^2)"
9.697435100E-2,1.230000034E-1,1.010000035E-1,2.099999972E-2,1.605334904E-1
1.019553530E-1,1.270000041E-1,1.049999967E-1,2.300000004E-2,1.663820914E-1
1.069362760E-1,1.309999973E-1,1.089999974E-1,2.600000054E-2,1.723890911E-1
1.119174280E-1,1.449999958E-1,1.230000034E-1,3.200000152E-2,1.928159737E-1
1.168984300E-1,1.620000005E-1,1.389999986E-1,3.700000048E-2,2.166425623E-1
1.218796060E-1,1.509999931E-1,1.299999952E-1,3.599999845E-2,2.024771507E-1
1.268606080E-1,1.379999965E-1,1.199999973E-1,3.299999982E-2,1.858305637E-1
1.318415310E-1,1.070000008E-1,9.499999881E-2,2.600000054E-2,1.454303956E-1
1.368226630E-1,7.599999756E-2,6.899999827E-2,1.799999923E-2,1.042161185E-1
1.418036650E-1,5.900000036E-2,5.400000140E-2,1.300000027E-2,8.103085956E-2
1.467848130E-1,3.400000185E-2,3.200000152E-2,7.000000216E-3,4.721228893E-2
1.517658150E-1,-9.999999776E-3,-8.999999613E-3,-2.000000095E-3,1.360147010E-2
1.567469670E-1,-4.699999839E-2,-4.600000009E-2,-1.099999994E-2,6.667833123E-2
1.617279970E-1,-7.999999821E-2,-8.100000024E-2,-2.099999972E-2,1.157670063E-1
1.667091490E-1,-9.499999881E-2,-9.899999946E-2,-2.700000070E-2,1.398391923E-1
1.716900740E-1,-1.080000028E-1,-1.140000001E-1,-3.200000152E-2,1.602622873E-1
1.766710960E-1,-7.900000364E-2,-1.199999973E-1,-6.000000052E-3,1.437949927E-1
1.816522490E-1,1.400000043E-2,-1.599999964E-1,6.000000052E-3,1.607233613E-1
1.866332380E-1,1.759999990E-1,-1.969999969E-1,-1.999999955E-2,2.649245146E-1
1.916143890E-1,3.709999919E-1,-2.300000042E-1,-1.379999965E-1,4.578045379E-1
1.965953910E-1,5.479999781E-1,-2.389999926E-1,-2.790000141E-1,6.597469062E-1
2.015763090E-1,7.139999866E-1,-2.409999967E-1,-3.860000074E-1,8.466835212E-1
2.065574610E-1,8.880000114E-1,-2.840000093E-1,-4.449999928E-1,1.033065835E0
2.115384490E-1,1.057000041E0,-3.650000095E-1,-5.080000162E-1,1.228225594E0
2.165196010E-1,1.228000045E0,-4.810000062E-1,-5.609999895E-1,1.433201348E0
2.215006030E-1,1.322000027E0,-5.600000024E-1,-5.860000253E-1,1.550703100E0
2.264817450E-1,1.276999950E0,-5.040000081E-1,-6.150000095E-1,1.504317085E0
2.314627470E-1,1.121999979E0,-4.000000060E-1,-5.989999771E-1,1.333298515E0
2.364438990E-1,9.079999924E-1,-2.360000014E-1,-5.580000281E-1,1.091569521E0
2.414248820E-1,6.740000248E-1,-9.200000018E-2,-4.589999914E-1,8.206223404E-1
2.464058050E-1,4.740000069E-1,9.600000083E-2,-2.860000134E-1,5.618612056E-1
2.513869570E-1,2.960000038E-1,2.619999945E-1,-6.700000167E-2,4.009351564E-1
2.563679300E-1,1.209999993E-1,4.379999936E-1,1.589999944E-1,4.814208060E-1
2.613490820E-1,-1.999999955E-2,5.669999719E-1,4.009999931E-1,6.947589240E-1
2.663301120E-1,-1.720000058E-1,7.009999752E-1,6.090000272E-1,9.443865736E-1
2.713112640E-1,-2.910000086E-1,8.379999995E-1,7.599999905E-1,1.168128841E0
2.762921890E-1,-4.040000141E-1,9.829999804E-1,8.420000076E-1,1.355901540E0
2.812731780E-1,-4.480000138E-1,1.085999966E0,8.719999790E-1,1.463039269E0
2.862543320E-1,-4.149999917E-1,1.115000010E0,8.780000210E-1,1.478625731E0
2.912353340E-1,-3.319999874E-1,1.085999966E0,8.220000267E-1,1.401892992E0
2.962164990E-1,-1.930000037E-1,1.036999941E0,7.260000110E-1,1.280505328E0
3.011975010E-1,-4.899999872E-2,9.459999800E-1,5.889999866E-1,1.115454144E0
3.061786730E-1,1.350000054E-1,8.460000157E-1,4.480000138E-1,9.667704177E-1
3.111595980E-1,3.129999936E-1,7.419999838E-1,2.569999993E-1,8.453295047E-1
3.161408270E-1,5.070000291E-1,6.349999905E-1,7.100000232E-2,8.156684484E-1
3.211217430E-1,6.499999762E-1,5.820000172E-1,-9.499999881E-2,8.776383018E-1
3.261027430E-1,7.440000176E-1,5.550000072E-1,-2.469999939E-1,9.605050917E-1
3.310838950E-1,7.670000196E-1,5.310000181E-1,-3.429999948E-1,9.939311071E-1
3.360648970E-1,7.689999938E-1,4.950000048E-1,-3.569999933E-1,9.817509819E-1
3.410460490E-1,6.940000057E-1,4.720000029E-1,-3.030000031E-1,8.923166548E-1
3.460270650E-1,5.400000215E-1,4.850000143E-1,-1.879999936E-1,7.497793240E-1
3.510082170E-1,3.260000050E-1,5.130000114E-1,-7.400000095E-2,6.123079414E-1
3.559891420E-1,1.330000013E-1,5.460000038E-1,1.099999994E-2,5.620729530E-1
3.609701160E-1,1.300000027E-2,5.720000267E-1,5.799999833E-2,5.750800208E-1
3.659512700E-1,-3.999999911E-2,5.860000253E-1,1.250000000E-1,6.005173016E-1
3.709322720E-1,-5.600000173E-2,6.190000176E-1,1.550000012E-1,6.405638316E-1
3.759134240E-1,-8.000000380E-3,6.119999886E-1,1.570000052E-1,6.318678562E-1
3.808944260E-1,2.500000037E-2,5.690000057E-1,1.700000018E-1,5.943786732E-1
3.858753580E-1,5.999999866E-2,5.849999785E-1,1.389999986E-1,6.042730958E-1
3.908565870E-1,1.080000028E-1,6.140000224E-1,1.089999974E-1,6.328831073E-1
3.958377210E-1,1.710000038E-1,6.690000296E-1,9.200000018E-2,6.966103939E-1
4.008186470E-1,3.569999933E-1,6.560000181E-1,1.539999992E-1,7.625621409E-1
4.057996330E-1,5.920000076E-1,6.209999919E-1,2.249999940E-1,8.869780134E-1
4.107807840E-1,8.859999776E-1,5.600000024E-1,2.730000019E-1,1.083108935E0
4.157617950E-1,1.245000005E0,4.930000007E-1,2.569999993E-1,1.363496612E0
4.207429470E-1,1.666000009E0,4.620000124E-1,2.349999994E-1,1.744770770E0
4.257239830E-1,2.174000025E0,4.429999888E-1,2.220000029E-1,2.229755390E0
4.307051350E-1,2.757999897E0,4.460000098E-1,2.450000048E-1,2.804550667E0
4.356861370E-1,3.384999990E0,4.169999957E-1,3.449999988E-1,3.427993426E0
4.406673320E-1,4.071000099E0,2.700000107E-1,5.149999857E-1,4.112318908E0
4.456483340E-1,4.750999928E0,1.260000020E-1,6.399999857E-1,4.795568402E0
4.506292570E-1,5.464000225E0,-5.099999905E-2,8.109999895E-1,5.524094536E0
4.556104240E-1,6.210999966E0,-2.000000030E-1,8.949999809E-1,6.278339394E0
4.605914260E-1,6.948999882E0,-3.440000117E-1,8.970000148E-1,7.015094040E0
4.655725820E-1,7.703000069E0,-5.299999714E-1,8.949999809E-1,7.772910330E0
4.705535840E-1,8.475000381E0,-7.910000086E-1,8.870000243E-1,8.557925071E0
4.755347320E-1,9.244999886E0,-1.098000050E0,8.349999785E-1,9.347344647E0
4.805157340E-1,9.923999786E0,-1.419000030E0,8.410000205E-1,1.006014979E1
4.854966570E-1,1.043400002E1,-1.700999975E0,8.700000048E-1,1.060748119E1
4.904778090E-1,1.075599957E1,-1.970000029E0,9.120000005E-1,1.097288343E1
4.954588110E-1,1.091399956E1,-2.188999891E0,1.024000049E0,1.117835779E1
5.004399470E-1,1.087600040E1,-2.407000065E0,1.251999974E0,1.120930587E1
5.054209490E-1,1.071300030E1,-2.579999924E0,1.457999945E0,1.111532900E1
5.104021000E-1,1.047700024E1,-2.724999905E0,1.621999979E0,1.094641687E1
5.153831310E-1,1.022500038E1,-2.865000010E0,1.792999983E0,1.076910891E1
5.203642830E-1,9.876000404E0,-2.997999907E0,1.986999989E0,1.051054501E1
5.253452900E-1,9.517000198E0,-3.180999994E0,2.174999952E0,1.026755465E1
5.303264420E-1,9.173000336E0,-3.361000061E0,2.349999905E0,1.004802250E1
5.353074440E-1,8.881999969E0,-3.553999901E0,2.515000105E0,9.891716953E0
5.402885570E-1,8.579999924E0,-3.634000063E0,2.618000031E0,9.678650697E0
5.452695590E-1,8.390000343E0,-3.744999886E0,2.720000029E0,9.582042061E0
5.502507110E-1,8.314999580E0,-3.947999954E0,2.848000050E0,9.635197245E0
5.552317130E-1,8.420999527E0,-4.177999973E0,2.957000017E0,9.854580961E0
5.602126360E-1,8.501000404E0,-4.399000168E0,3.029999971E0,1.003987600E1
5.651937790E-1,8.664999962E0,-4.668000221E0,3.062000036E0,1.030768134E1
5.701747810E-1,8.826000214E0,-4.965000153E0,3.035000086E0,1.057169484E1
5.751559330E-1,8.940999985E0,-5.290999889E0,3.023999929E0,1.082038521E1
5.801369200E-1,8.859999657E0,-5.512000084E0,3.039000034E0,1.086817648E1
5.851180720E-1,8.670999527E0,-5.684999943E0,2.986999989E0,1.079016339E1
5.900990930E-1,8.491000175E0,-5.903999805E0,3.076999903E0,1.078991316E1
5.950802440E-1,8.428999901E0,-6.222000122E0,3.167999983E0,1.094520666E1
6.000611700E-1,8.197999954E0,-6.511000156E0,3.331000090E0,1.098616803E1
6.050421730E-1,7.932000160E0,-6.848999977E0,3.492000103E0,1.104624334E1
6.100233260E-1,7.618999958E0,-7.291999817E0,3.760999918E0,1.119676480E1
6.150043280E-1,7.258999825E0,-7.756000042E0,4.000000000E0,1.135115039E1
6.199854370E-1,6.576000214E0,-8.064000130E0,4.175000191E0,1.121171278E1
6.249664390E-1,5.837999821E0,-8.286000252E0,4.322000027E0,1.101906195E1
6.299475910E-1,5.120999813E0,-8.444999695E0,4.570000172E0,1.088244276E1
6.349286020E-1,4.531000137E0,-8.526000023E0,4.685999870E0,1.073225202E1
6.399097540E-1,4.193999767E0,-8.717000008E0,4.833000183E0,1.081358469E1
6.448907280E-1,3.898999929E0,-8.949999809E0,4.905000210E0,1.092537066E1
6.498716510E-1,3.657000065E0,-9.116999626E0,4.988999844E0,1.101741581E1
6.548528030E-1,3.418999910E0,-9.248999596E0,5.081999779E0,1.109325361E1
6.598338140E-1,3.210999966E0,-9.326000214E0,5.092000008E0,1.110014706E1
6.648149660E-1,3.028000116E0,-9.399999619E0,5.006000042E0,1.107198329E1
6.697959680E-1,2.891000032E0,-9.510999680E0,4.908999920E0,1.108671621E1
6.747771010E-1,2.709000111E0,-9.659999847E0,4.823999882E0,1.113217200E1
6.797581030E-1,2.480999947E0,-9.788999557E0,4.793000221E0,1.117822545E1
6.847392600E-1,2.384999990E0,-9.817000389E0,4.785999775E0,1.117888704E1
6.897202620E-1,2.444000006E0,-9.824999809E0,4.802000046E0,1.120548802E1
6.947011850E-1,2.641999960E0,-9.859000206E0,4.780000210E0,1.127068990E1
6.996823900E-1,2.917000055E0,-9.930999756E0,4.821000099E0,1.141821735E1
7.046633150E-1,3.134000063E0,-1.005399990E1,4.993000031E0,1.165482388E1
7.096444660E-1,3.194000006E0,-1.016199970E1,5.261000156E0,1.188048806E1
7.146254880E-1,3.085999966E0,-1.022200012E1,5.535999775E0,1.202746756E1
7.196066400E-1,2.976000071E0,-1.022099972E1,5.736999989E0,1.209291448E1
7.245876270E-1,2.874000072E0,-1.022799969E1,5.823999882E0,1.211572650E1
7.295687790E-1,2.803999901E0,-1.026700020E1,5.836999893E0,1.213854506E1
7.345497810E-1,2.711999893E0,-1.037699986E1,5.870999813E0,1.222725268E1
7.395309280E-1,2.494999886E0,-1.052999973E1,5.907000065E0,1.232876995E1
7.445119300E-1,2.174000025E0,-1.066499996E1,5.890999794E0,1.237628292E1
7.494930820E-1,1.820000052E0,-1.072900009E1,5.912000179E0,1.238448987E1
7.544741180E-1,1.523000002E0,-1.065799999E1,6.006000042E0,1.232820057E1
7.594552700E-1,1.314000010E0,-1.050199986E1,6.092999935E0,1.221242176E1
7.644363010E-1,1.136000037E0,-1.033899975E1,6.125000000E0,1.207066845E1
7.694174530E-1,9.610000253E-1,-1.027600002E1,6.147999763E0,1.201322599E1
7.743984600E-1,7.409999967E-1,-1.024300003E1,6.164999962E0,1.197811985E1
7.793793830E-1,4.160000086E-1,-1.019999981E1,6.138999939E0,1.191219427E1
7.843605630E-1,-8.900000155E-2,-1.005799961E1,6.080999851E0,1.175371585E1
7.893417930E-1,-7.319999933E-1,-9.885999680E0,6.025000095E0,1.160040688E1
7.943227180E-1,-1.496000051E0,-9.706999779E0,6.020999908E0,1.152025611E1
7.993037290E-1,-2.507999897E0,-9.489000320E0,6.048999786E0,1.152916254E1
8.042848800E-1,-3.740999937E0,-9.241000175E0,6.070000172E0,1.167202068E1
8.092658820E-1,-5.030000210E0,-8.977999687E0,6.011000156E0,1.191794879E1
8.142470340E-1,-6.251999855E0,-8.715999603E0,5.881999969E0,1.223331823E1
8.192280360E-1,-7.350999832E0,-8.508000374E0,5.644999981E0,1.258130731E1
8.242092310E-1,-8.210000038E0,-8.380000114E0,5.335999966E0,1.288803314E1
8.291902330E-1,-8.510999680E0,-8.343000412E0,4.889999866E0,1.288234723E1
8.341713850E-1,-8.151000023E0,-8.480999947E0,4.447000027E0,1.257545111E1
8.391523630E-1,-7.491000175E0,-8.748999596E0,4.087999821E0,1.222177647E1
8.441335150E-1,-6.920000076E0,-9.010000229E0,3.726999998E0,1.195646412E1
8.491145170E-1,-6.581999779E0,-9.123000145E0,3.448999882E0,1.176636957E1
8.540956690E-1,-6.572999954E0,-9.038000107E0,3.244999886E0,1.163700127E1
8.590765940E-1,-6.908999920E0,-8.772999763E0,3.096999884E0,1.158840856E1
8.640578280E-1,-7.651999950E0,-8.310999870E0,3.062999964E0,1.170503272E1
8.690387530E-1,-8.939000130E0,-7.788000107E0,3.292000055E0,1.230430548E1
8.740197530E-1,-1.060200024E1,-7.361000061E0,3.749000072E0,1.344030254E1
8.790009190E-1,-1.239500046E1,-7.114999771E0,4.282999992E0,1.491989769E1
8.839819210E-1,-1.420899963E1,-6.973000050E0,4.676000118E0,1.650404124E1
8.889630720E-1,-1.592599964E1,-6.846000195E0,4.894000053E0,1.801267386E1
8.939440980E-1,-1.752099991E1,-6.748000145E0,4.802999973E0,1.938013809E1
8.989252500E-1,-1.894599915E1,-6.650000095E0,4.587999821E0,2.059667758E1
9.039062720E-1,-2.024500084E1,-6.451000214E0,4.071000099E0,2.163442869E1
9.088874240E-1,-2.134199905E1,-6.354000092E0,3.171000004E0,2.249243166E1
9.138684260E-1,-2.221299934E1,-6.354000092E0,2.207000017E0,2.320908241E1
9.188495780E-1,-2.281699944E1,-6.372000217E0,1.332000017E0,2.372745402E1
9.238305800E-1,-2.311800003E1,-6.414000034E0,6.370000243E-1,2.399973106E1
9.288117320E-1,-2.322800064E1,-6.489999771E0,8.000000380E-3,2.411763203E1
9.337927140E-1,-2.324500084E1,-6.613999844E0,-6.380000114E-1,2.417606465E1
9.387738660E-1,-2.328100014E1,-6.778999805E0,-1.276999950E0,2.428148543E1
9.437548680E-1,-2.332799911E1,-7.025000095E0,-1.902999997E0,2.443701246E1
9.487357910E-1,-2.331299973E1,-7.284999847E0,-2.467999935E0,2.454909780E1
9.537170200E-1,-2.328199959E1,-7.513000011E0,-2.976000071E0,2.464453794E1
9.586979360E-1,-2.324300003E1,-7.671000004E0,-3.549000025E0,2.473209843E1
9.636790880E-1,-2.315800095E1,-7.796000004E0,-4.138999939E0,2.478309796E1
9.686600900E-1,-2.304000092E1,-7.959000111E0,-4.769000053E0,2.483808943E1
9.736412360E-1,-2.276700020E1,-8.154000282E0,-5.436999798E0,2.478679054E1
9.786222380E-1,-2.239399910E1,-8.354999542E0,-6.086999893E0,2.466472746E1
9.836033950E-1,-2.201199913E1,-8.548000336E0,-6.571000099E0,2.451070088E1
9.885843970E-1,-2.162199974E1,-8.659000397E0,-6.868999958E0,2.428316950E1
9.935655490E-1,-2.114500046E1,-8.717000008E0,-7.073999882E0,2.394031344E1
9.985465410E-1,-2.062299919E1,-8.774000168E0,-7.130000114E0,2.351867505E1
1.003527693E0,-2.012700081E1,-8.897999763E0,-6.868999958E0,2.305328007E1
1.008508594E0,-1.971599960E1,-9.029999733E0,-6.574999809E0,2.266036536E1
1.013489823E0,-1.940299988E1,-9.161000252E0,-6.248000145E0,2.234810586E1
1.018470748E0,-1.913500023E1,-9.326999664E0,-5.794000149E0,2.206154107E1
1.023451767E0,-1.886899948E1,-9.470000267E0,-5.081999779E0,2.171512764E1
1.028432919E0,-1.866799927E1,-9.564999580E0,-4.287000179E0,2.140938542E1
1.033413907E0,-1.844899940E1,-9.635999680E0,-3.602999926E0,2.112343905E1
1.038395059E0,-1.817200089E1,-9.741000175E0,-2.950999975E0,2.082827649E1
1.043376070E0,-1.785099983E1,-9.876999855E0,-2.207999945E0,2.052044310E1
1.048357222E0,-1.737800026E1,-1.010999966E1,-1.389999986E0,2.015289275E1
1.053338224E0,-1.681900024E1,-1.040200043E1,-5.910000205E-1,1.978458145E1
1.058319376E0,-1.616900063E1,-1.075699997E1,2.090000063E-1,1.942146520E1
1.063300378E0,-1.537100029E1,-1.111299992E1,9.509999752E-1,1.899133534E1
1.068281529E0,-1.451500034E1,-1.144699955E1,1.600000024E0,1.855475771E1
1.073262536E0,-1.355000019E1,-1.173200035E1,2.226999998E0,1.806105939E1
1.078243688E0,-1.244200039E1,-1.198799992E1,2.914999962E0,1.752177903E1
1.083224680E0,-1.127799988E1,-1.222999954E1,3.608000040E0,1.702303834E1
1.088205832E0,-1.016600037E1,-1.246399975E1,4.298999786E0,1.664873125E1
1.093186834E0,-9.156999588E0,-1.263099957E1,5.046999931E0,1.639710340E1
1.098167977E0,-8.435999870E0,-1.267000008E1,5.862999916E0,1.631164504E1
1.103148979E0,-8.012000084E0,-1.265200043E1,6.808000088E0,1.645035335E1
1.108130131E0,-7.853000164E0,-1.259899998E1,7.920000076E0,1.682649141E1
1.113111113E0,-7.761000156E0,-1.259700012E1,9.121000290E0,1.738131703E1
1.118092265E0,-7.469999790E0,-1.270199966E1,1.030099964E1,1.797921817E1
1.123073267E0,-6.929999828E0,-1.298900032E1,1.130799961E1,1.856367103E1
1.128054419E0,-6.245999813E0,-1.340499973E1,1.213700008E1,1.913147413E1
1.133035421E0,-5.526000023E0,-1.384500027E1,1.274800014E1,1.961459192E1
1.138016592E0,-4.903999805E0,-1.423400021E1,1.319799995E1,2.002106837E1
1.142997594E0,-4.469999790E0,-1.449300003E1,1.340299988E1,2.024026565E1
1.147978746E0,-4.214000225E0,-1.455799961E1,1.328400040E1,2.015335746E1
1.152959748E0,-4.163000107E0,-1.447700024E1,1.277600002E1,1.975196907E1
1.157940900E0,-4.335000038E0,-1.431200027E1,1.218299961E1,1.928862506E1
1.162921815E0,-4.612999916E0,-1.416199970E1,1.180900002E1,1.900774803E1
1.167902813E0,-5.002999783E0,-1.405799961E1,1.176299953E1,1.900067151E1
1.172884044E0,-5.543000221E0,-1.388500023E1,1.180500031E1,1.904930747E1
1.177864954E0,-6.103000164E0,-1.375800037E1,1.165999985E1,1.903903311E1
1.182846106E0,-6.481999874E0,-1.385900021E1,1.148799992E1,1.913275597E1
1.187827108E0,-6.552000046E0,-1.413300037E1,1.132999992E1,1.926238050E1
1.192808256E0,-6.342999935E0,-1.449600029E1,1.112600040E1,1.934310103E1
1.197789258E0,-6.085000038E0,-1.487600040E1,1.094699955E1,1.944632131E1
1.202770414E0,-6.015999794E0,-1.514900017E1,1.083800030E1,1.957413370E1
1.207751416E0,-6.124000072E0,-1.516300011E1,1.074499989E1,1.956719121E1
1.212732568E0,-6.205999851E0,-1.513099957E1,1.065400028E1,1.951843498E1
1.217713561E0,-6.166999817E0,-1.518000031E1,1.075800037E1,1.960099151E1
1.222694713E0,-6.094999790E0,-1.523299980E1,1.104599953E1,1.977896385E1
1.227675715E0,-5.914999962E0,-1.526799965E1,1.139400005E1,1.994798925E1
1.232656846E0,-5.393000126E0,-1.558199978E1,1.175500011E1,2.025001716E1
1.237637848E0,-4.754000187E0,-1.600000000E1,1.182600021E1,2.045616775E1
1.242619015E0,-4.050000191E0,-1.638899994E1,1.179899979E1,2.059655837E1
1.247600017E0,-3.621999979E0,-1.651000023E1,1.178699970E1,2.060660946E1
1.252581169E0,-2.874000072E0,-1.656699944E1,1.165799999E1,2.046055499E1
1.257562176E0,-2.016000032E0,-1.653899956E1,1.141699982E1,2.019778818E1
1.262543328E0,-1.190999985E0,-1.650099945E1,1.119400024E1,1.997516221E1
1.267524330E0,-4.250000119E-1,-1.637599945E1,1.111200047E1,1.979470983E1
1.272505491E0,3.240000010E-1,-1.603700066E1,1.114599991E1,1.953263116E1
1.277486493E0,1.139999986E0,-1.559000015E1,1.125300026E1,1.926078190E1
1.282467645E0,2.124000072E0,-1.525500011E1,1.133699989E1,1.912469533E1
1.287448647E0,3.170000076E0,-1.503499985E1,1.127400017E1,1.905789077E1
1.292429799E0,3.898000002E0,-1.465699959E1,1.084599972E1,1.864558261E1
1.297410792E0,4.232999802E0,-1.419299984E1,1.030599976E1,1.804364605E1
1.302391943E0,4.302000046E0,-1.384700012E1,1.030599976E1,1.778932960E1
1.307372945E0,4.181000233E0,-1.341199970E1,1.014400005E1,1.732810538E1
1.312354092E0,4.014999866E0,-1.292000008E1,9.949000359E0,1.679372603E1
1.317335094E0,3.888000011E0,-1.253999996E1,9.829000473E0,1.640053028E1
1.322316241E0,3.888999939E0,-1.228800011E1,9.657999992E0,1.610578253E1
1.327297243E0,4.354000092E0,-1.235599995E1,9.347000122E0,1.609330490E1
1.332278166E0,5.237999916E0,-1.284200001E1,8.932000160E0,1.649649157E1
1.337259375E0,6.158999920E0,-1.326099968E1,8.378000259E0,1.685165514E1
1.342240300E0,6.973999977E0,-1.330900002E1,7.623000145E0,1.684862868E1
1.347221529E0,7.708000183E0,-1.307600021E1,7.008999825E0,1.671888534E1
1.352202458E0,8.529000282E0,-1.282400036E1,6.460999966E0,1.670159728E1
1.357183610E0,9.312999725E0,-1.262899971E1,5.968999863E0,1.678846500E1
1.362164617E0,9.914999962E0,-1.240200043E1,5.692999840E0,1.686793070E1
1.367145769E0,1.026799965E1,-1.196500015E1,5.724999905E0,1.677404749E1
1.372126771E0,1.047399998E1,-1.136200047E1,6.037000179E0,1.659051239E1
1.377107947E0,1.058199978E1,-1.086999989E1,6.418000221E0,1.647198663E1
1.382088949E0,1.065600014E1,-1.058500004E1,6.885000229E0,1.652258433E1
1.387070101E0,1.065900040E1,-1.052600002E1,7.519999981E0,1.676190221E1
1.392051108E0,1.083399963E1,-1.065900040E1,7.830999851E0,1.709720434E1
1.397032259E0,1.129899979E1,-1.085099983E1,7.510000229E0,1.737272854E1
1.402013275E0,1.214200020E1,-1.130200005E1,6.989999771E0,1.800065195E1
1.406994427E0,1.313199997E1,-1.189599991E1,6.201000214E0,1.877276327E1
1.411975429E0,1.412199974E1,-1.234200001E1,5.019999981E0,1.941536095E1
1.416956548E0,1.511800003E1,-1.267899990E1,3.861999989E0,2.010537260E1
1.421937550E0,1.612700081E1,-1.303999996E1,2.697000027E0,2.091400400E1
1.426918702E0,1.710899925E1,-1.335700035E1,1.605999947E0,2.176480070E1
1.431899723E0,1.802000046E1,-1.359399986E1,6.209999919E-1,2.258102942E1
1.436880875E0,1.895100021E1,-1.378800011E1,-2.020000070E-1,2.343694007E1
1.441861896E0,1.990900040E1,-1.401599979E1,-9.570000172E-1,2.436662463E1
1.446843048E0,2.089399910E1,-1.421399975E1,-1.616999984E0,2.532215781E1
1.451824050E0,2.186499977E1,-1.430700016E1,-2.016999960E0,2.620757061E1
1.456805202E0,2.269499969E1,-1.430700016E1,-2.232000113E0,2.692090432E1
1.461786204E0,2.325000000E1,-1.418099976E1,-2.303999901E0,2.733078246E1
1.466767355E0,2.344599915E1,-1.398900032E1,-2.380000114E0,2.740568201E1
1.471748367E0,2.331900024E1,-1.377900028E1,-2.381999969E0,2.719026563E1
1.476729519E0,2.290500069E1,-1.356200027E1,-2.438999891E0,2.673042514E1
1.481710540E0,2.222800064E1,-1.335200024E1,-2.441999912E0,2.604464026E1
1.486691692E0,2.136199951E1,-1.309700012E1,-2.250999928E0,2.515816838E1
1.491672694E0,2.030699921E1,-1.286900043E1,-1.991999984E0,2.412371142E1
1.496653846E0,1.913500023E1,-1.268099976E1,-1.782999992E0,2.302466238E1
1.501634848E0,1.790999985E1,-1.243599987E1,-1.600999951E0,2.186287694E1
1.506616000E0,1.667300034E1,-1.209200001E1,-1.279999971E0,2.063598324E1
1.511597011E0,1.544499969E1,-1.163700008E1,-8.759999871E-1,1.935807745E1
1.516578163E0,1.427400017E1,-1.115100002E1,-4.560000002E-1,1.811904573E1
1.521559180E0,1.320400047E1,-1.073499966E1,-3.999999911E-2,1.701726906E1
1.526540332E0,1.232100010E1,-1.048799992E1,3.950000107E-1,1.618521581E1
1.531521334E0,1.158899975E1,-1.042199993E1,8.389999866E-1,1.560855274E1
1.536502514E0,1.100000000E1,-1.047900009E1,1.222000003E0,1.524148047E1
1.541483516E0,1.042599964E1,-1.051900005E1,1.552999973E0,1.489169700E1
1.546464667E0,9.824000359E0,-1.039200020E1,1.906999946E0,1.442710296E1
1.551445679E0,9.199000359E0,-1.015200043E1,2.232000113E0,1.388043748E1
1.556426831E0,8.595000267E0,-9.911999702E0,2.556999922E0,1.336637633E1
1.561407828E0,8.050000191E0,-9.696999550E0,2.980000019E0,1.295047117E1
1.566388980E0,7.532000065E0,-9.510999680E0,3.542000055E0,1.263866703E1
1.571369982E0,7.086999893E0,-9.342000008E0,4.157000065E0,1.244102814E1
1.576351110E0,6.657999992E0,-9.215999603E0,4.830999851E0,1.235322517E1
1.581332112E0,6.277999878E0,-9.093000412E0,5.561999798E0,1.237060147E1
1.586313264E0,5.961999893E0,-9.005000114E0,6.278999805E0,1.249245005E1
1.591294256E0,5.640999794E0,-8.928999901E0,6.843999863E0,1.258523945E1
1.596275408E0,5.320000172E0,-8.904000282E0,7.291999817E0,1.267899382E1
1.601256396E0,5.091000080E0,-8.994000435E0,7.710000038E0,1.289396860E1
1.606237548E0,4.935999870E0,-9.208999634E0,8.251000404E0,1.331348101E1
1.611218550E0,4.899000168E0,-9.439999580E0,8.715999603E0,1.375072521E1
1.616199697E0,4.932000160E0,-9.711999893E0,8.973999977E0,1.411312308E1
1.621180699E0,4.984000206E0,-1.005799961E1,9.052000046E0,1.442020524E1
1.626161865E0,4.875000000E0,-1.040200043E1,9.114000320E0,1.466397762E1
1.631142867E0,4.664000034E0,-1.071500015E1,9.024000168E0,1.476471143E1
1.636124019E0,4.375999928E0,-1.096199989E1,8.864000320E0,1.476093895E1
1.641105016E0,3.938999891E0,-1.119900036E1,8.656000137E0,1.469216347E1
1.646086168E0,3.493000031E0,-1.147000027E1,8.532999992E0,1.471645488E1
1.651067155E0,3.049000025E0,-1.174899960E1,8.472000122E0,1.480237071E1
1.656048307E0,2.572000027E0,-1.201399994E1,8.572999954E0,1.498157892E1
1.661029309E0,2.105000019E0,-1.217899990E1,8.633000374E0,1.507606577E1
1.666010452E0,1.582999945E0,-1.224199963E1,8.651000023E0,1.507356113E1
1.670991454E0,1.108000040E0,-1.227799988E1,8.789999962E0,1.514070819E1
1.675972606E0,6.380000114E-1,-1.233500004E1,8.826000214E0,1.518082836E1
1.680953588E0,2.430000007E-1,-1.239999962E1,8.798000336E0,1.520604648E1
1.685934740E0,-7.699999958E-2,-1.243200016E1,8.880999565E0,1.527850484E1
1.690915742E0,-3.790000081E-1,-1.237800026E1,9.005000114E0,1.531171311E1
1.695896869E0,-5.830000043E-1,-1.229899979E1,9.050000191E0,1.528096163E1
1.700877872E0,-6.290000081E-1,-1.230399990E1,9.031999588E0,1.527616022E1
1.705859023E0,-6.129999757E-1,-1.231499958E1,9.083999634E0,1.531515697E1
1.710839997E0,-5.030000210E-1,-1.227999973E1,9.222000122E0,1.536543812E1
1.715821149E0,-2.700000107E-1,-1.223999977E1,9.399000168E0,1.543475619E1
1.720802174E0,-4.600000009E-2,-1.218200016E1,9.645000458E0,1.553799465E1
1.725783326E0,1.230000034E-1,-1.211600018E1,9.958999634E0,1.568420425E1
1.730764557E0,2.419999987E-1,-1.209099960E1,1.030000019E1,1.588523967E1
1.735745435E0,3.540000021E-1,-1.221000004E1,1.040600014E1,1.604662755E1
1.740726435E0,4.329999983E-1,-1.246399975E1,1.033600044E1,1.619789134E1
1.745707578E0,3.939999938E-1,-1.281000042E1,1.011999989E1,1.632990338E1
1.750688580E0,2.500000000E-1,-1.314700031E1,9.862000465E0,1.643670193E1
1.755669732E0,5.200000107E-2,-1.336600018E1,9.810000420E0,1.657976999E1
1.760650733E0,-1.700000018E-1,-1.337100029E1,9.960000038E0,1.667375631E1
1.765631885E0,-3.210000098E-1,-1.329300022E1,1.001000023E1,1.664352728E1
1.770612887E0,-3.860000074E-1,-1.323499966E1,9.850999832E0,1.650322422E1
1.775594019E0,-4.250000119E-1,-1.332699966E1,9.555999756E0,1.640447123E1
1.780575021E0,-4.410000145E-1,-1.349300003E1,9.204999924E0,1.633975381E1
1.785556173E0,-4.760000110E-1,-1.368999958E1,8.895000458E0,1.633290230E1
1.790537195E0,-5.270000100E-1,-1.386299992E1,8.647000313E0,1.634720496E1
1.795518347E0,-7.099999785E-1,-1.381999969E1,8.553000450E0,1.626807635E1
1.800499334E0,-8.899999857E-1,-1.361299992E1,8.486000061E0,1.606605315E1
1.805480486E0,-1.116999984E0,-1.337199974E1,8.609000206E0,1.594280247E1
1.810461488E0,-1.481999993E0,-1.322099972E1,8.911000252E0,1.601240404E1
1.815442655E0,-2.086999893E0,-1.314400005E1,9.319000244E0,1.624697115E1
1.820423886E0,-3.006000042E0,-1.303299999E1,9.652000427E0,1.649412736E1
1.825404868E0,-4.139999866E0,-1.280099964E1,9.810000420E0,1.665056452E1
1.830386020E0,-5.349999905E0,-1.239400005E1,9.878999710E0,1.672807136E1
1.835367022E0,-6.438000202E0,-1.190999985E1,9.876999855E0,1.675861179E1
1.840348149E0,-7.310999870E0,-1.146500015E1,9.940999985E0,1.684400274E1
1.845329151E0,-8.003999710E0,-1.112300014E1,9.991000175E0,1.695892768E1
1.850310303E0,-8.625000000E0,-1.093700027E1,9.859000206E0,1.706483182E1
1.855291233E0,-9.248999596E0,-1.087300014E1,9.508000374E0,1.715133222E1
1.860272462E0,-9.968000412E0,-1.086499977E1,9.166000366E0,1.736159022E1
1.865253464E0,-1.096500015E1,-1.072999954E1,8.734999657E0,1.765401760E1
1.870234635E0,-1.217599964E1,-1.043500042E1,8.196000099E0,1.800884834E1
1.875215637E0,-1.332800007E1,-1.014099979E1,7.431000233E0,1.832198753E1
1.880196784E0,-1.416100025E1,-9.998999596E0,6.498000145E0,1.851318252E1
1.885177786E0,-1.465699959E1,-1.005099964E1,5.696000099E0,1.866265383E1
1.890158938E0,-1.484300041E1,-1.020699978E1,4.945000172E0,1.868021768E1
1.895139955E0,-1.497200012E1,-1.028400040E1,4.300000191E0,1.866578296E1
1.900121107E0,-1.523700047E1,-1.028199959E1,3.776000023E0,1.876549693E1
1.905102113E0,-1.565900040E1,-1.025300026E1,3.285000086E0,1.900314535E1
1.910083265E0,-1.608499908E1,-1.023900032E1,2.974999905E0,1.929805554E1
1.915064267E0,-1.643199921E1,-1.027999973E1,2.798000097E0,1.958361042E1
1.920045447E0,-1.678899956E1,-1.035200024E1,2.737999916E0,1.991308762E1
1.925026449E0,-1.743899918E1,-1.033800030E1,2.674000025E0,2.044855052E1
1.930007568E0,-1.859000015E1,-1.011800003E1,2.743999958E0,2.134224838E1
1.934988570E0,-1.999900055E1,-9.744999886E0,2.703999996E0,2.241063724E1
1.939969832E0,-2.130599976E1,-9.432999611E0,2.497999907E0,2.343431481E1
1.944950757E0,-2.245899963E1,-9.213000298E0,2.273999929E0,2.438149123E1
1.949931909E0,-2.351399994E1,-8.935000420E0,1.922999978E0,2.522776951E1
1.954912887E0,-2.445700073E1,-8.600000381E0,1.378999949E0,2.596163578E1
1.959894039E0,-2.522100067E1,-8.340000153E0,6.269999743E-1,2.657155634E1
1.964875041E0,-2.564500046E1,-8.276000023E0,-3.449999988E-1,2.694953153E1
1.969856260E0,-2.566699982E1,-8.418999672E0,-1.490000010E0,2.705354940E1
1.974837416E0,-2.529000092E1,-8.706000328E0,-2.579999924E0,2.687070873E1
1.979818430E0,-2.462199974E1,-9.022999763E0,-3.532000065E0,2.646001550E1
1.984799581E0,-2.378300095E1,-9.270999908E0,-4.399000168E0,2.590238938E1
1.989780583E0,-2.275000000E1,-9.524999619E0,-5.296999931E0,2.522590585E1
1.994761720E0,-2.151499939E1,-9.774999619E0,-6.099999905E0,2.440606103E1
1.999742722E0,-2.015200043E1,-9.963999748E0,-6.765999794E0,2.347686447E1
2.004723874E0,-1.874300003E1,-1.006599998E1,-7.263999939E0,2.248088301E1
2.009704905E0,-1.737700081E1,-1.007999992E1,-7.725999832E0,2.152342048E1
2.014686057E0,-1.605699921E1,-1.005500031E1,-7.978000164E0,2.055672010E1
2.019667059E0,-1.480799961E1,-1.005099964E1,-8.008999825E0,1.960723143E1
2.024648211E0,-1.358399963E1,-1.006599998E1,-7.780000210E0,1.861122793E1
2.029629213E0,-1.240699959E1,-9.994999886E0,-7.352000237E0,1.754666832E1
2.034610380E0,-1.126500034E1,-9.822999954E0,-6.783999920E0,1.641384220E1
2.039591382E0,-1.022599983E1,-9.583999634E0,-6.086999893E0,1.527991130E1
2.044572534E0,-9.352000237E0,-9.388999939E0,-5.389999866E0,1.430612900E1
2.049553584E0,-8.654000282E0,-9.234000206E0,-4.701000214E0,1.350029199E1
2.054534736E0,-8.210000038E0,-9.069000244E0,-3.986999989E0,1.286650827E1
2.059515742E0,-8.010000229E0,-8.911999702E0,-3.266999960E0,1.242002943E1
2.064496893E0,-7.947999954E0,-8.842000008E0,-2.808000088E0,1.221624050E1
2.069478124E0,-7.972000122E0,-8.847999573E0,-2.438999891E0,1.215683359E1
2.074459112E0,-7.993000031E0,-8.765000343E0,-2.131999969E0,1.205233191E1
2.079440264E0,-8.020000458E0,-8.467000008E0,-1.950000048E0,1.182425459E1
2.084421266E0,-7.995999813E0,-7.980999947E0,-1.796000004E0,1.143931769E1
2.089402447E0,-7.879000187E0,-7.460000038E0,-1.529000044E0,1.095755838E1
2.094383449E0,-7.723000050E0,-6.986999989E0,-1.228000045E0,1.048670028E1
2.099364591E0,-7.472000122E0,-6.625000000E0,-9.179999828E-1,1.002816707E1
2.104345593E0,-7.218999863E0,-6.394000053E0,-4.569999874E-1,9.654327770E0
2.109326745E0,-6.919000149E0,-6.276999950E0,1.280000061E-1,9.342894382E0
2.114307766E0,-6.530000210E0,-6.272999763E0,7.459999919E-1,9.085589951E0
2.119288918E0,-6.153999805E0,-6.342999935E0,1.404999971E0,8.948708661E0
2.124269920E0,-5.821000099E0,-6.486999989E0,2.085000038E0,8.961720603E0
2.129251071E0,-5.495999813E0,-6.664999962E0,2.752000093E0,9.066517686E0
2.134232073E0,-5.105000019E0,-6.919000149E0,3.369999886E0,9.235284916E0
2.139213259E0,-4.546999931E0,-7.237999916E0,3.937000036E0,9.410835268E0
2.144194261E0,-3.918999910E0,-7.548999786E0,4.428999901E0,9.589681861E0
2.149175413E0,-3.368000031E0,-7.821000099E0,4.966000080E0,9.857617539E0
2.154156659E0,-2.980999947E0,-7.988999844E0,5.531000137E0,1.016378088E1
2.159137584E0,-2.746999979E0,-8.041000366E0,5.888999939E0,1.033847262E1
2.164118584E0,-2.617000103E0,-7.971000195E0,5.935999870E0,1.027723835E1
2.169099755E0,-2.506000042E0,-7.894999981E0,5.870999813E0,1.015281733E1
2.174080757E0,-2.421000004E0,-7.912000179E0,5.793000221E0,1.010048709E1
2.179061923E0,-2.316999912E0,-8.001000404E0,5.697000027E0,1.009159578E1
2.184043154E0,-2.055000067E0,-8.102000237E0,5.566999912E0,1.004275466E1
2.189024156E0,-1.600000024E0,-8.197999954E0,5.447999954E0,9.972357135E0
2.194005302E0,-1.177000046E0,-8.246000290E0,5.468999863E0,9.964527555E0
2.198986304E0,-1.083999991E0,-8.154999733E0,5.767000198E0,1.004675908E1
2.203967461E0,-1.294999957E0,-7.998000145E0,6.041999817E0,1.010696755E1
2.208948463E0,-1.613999963E0,-7.929999828E0,6.434999943E0,1.033920294E1
2.213929615E0,-1.802999973E0,-8.039999962E0,6.886000156E0,1.073822175E1
2.218910608E0,-1.820999980E0,-8.355999947E0,7.304999828E0,1.124730183E1
2.223891760E0,-1.745000005E0,-8.755999565E0,7.649000168E0,1.175668988E1
2.228872762E0,-1.700000048E0,-9.059000015E0,7.802000046E0,1.207587207E1
2.233853918E0,-1.730999947E0,-9.097000122E0,7.855999947E0,1.214366119E1
2.238834920E0,-1.899999976E0,-8.911000252E0,7.735000134E0,1.195182632E1
2.243816144E0,-2.312999964E0,-8.541000366E0,7.477000237E0,1.158465315E1
2.248797069E0,-2.930999994E0,-8.090999603E0,7.215000153E0,1.122992710E1
2.253778221E0,-3.358999968E0,-7.657000065E0,6.935999870E0,1.086372979E1
2.258759199E0,-3.354000092E0,-7.434999943E0,6.750000000E0,1.058730564E1
2.263740427E0,-3.010999918E0,-7.543000221E0,6.732999802E0,1.054970422E1
2.268721583E0,-2.448999882E0,-8.006999969E0,6.797999859E0,1.078528864E1
2.273702569E0,-1.970999956E0,-8.572999954E0,6.649000168E0,1.102680245E1
2.278683721E0,-1.745000005E0,-8.909000397E0,6.245999813E0,1.101942951E1
2.283664723E0,-1.738999963E0,-9.003000259E0,5.579999924E0,1.073380332E1
2.288645889E0,-1.782999992E0,-9.050000191E0,4.857999802E0,1.042505417E1
2.293626891E0,-1.794999957E0,-9.104999542E0,4.342000008E0,1.024577989E1
2.298608039E0,-1.712000012E0,-9.055999756E0,3.891000032E0,1.000409700E1
2.303589041E0,-1.488999963E0,-8.965000153E0,3.532000065E0,9.750044773E0
2.308570193E0,-1.220999956E0,-8.986000061E0,3.295000076E0,9.648630136E0
2.313551195E0,-1.111999989E0,-9.013999939E0,3.384999990E0,9.692624196E0
2.318532424E0,-1.023000002E0,-8.892000198E0,3.862999916E0,9.748690419E0
2.323513579E0,-7.659999728E-1,-8.645999908E0,4.419000149E0,9.740001678E0
2.328494487E0,-3.389999866E-1,-8.461000443E0,4.977000237E0,9.822116922E0
2.333475716E0,8.699999750E-2,-8.430000305E0,5.466000080E0,1.004736936E1
2.338456718E0,5.989999771E-1,-8.585000038E0,5.822999954E0,1.039078222E1
2.343437870E0,1.452999949E0,-8.963999748E0,5.999000072E0,1.088358866E1
2.348418872E0,2.677000046E0,-9.340999603E0,5.849999905E0,1.134209424E1
2.353399991E0,3.828999996E0,-9.508999825E0,5.395999908E0,1.158443497E1
2.358380993E0,4.742000103E0,-9.310999870E0,5.118000031E0,1.163508521E1
2.363362145E0,5.268000126E0,-8.703000069E0,4.956999779E0,1.131661974E1
2.368343128E0,5.528999805E0,-7.828000069E0,5.011000156E0,1.081469123E1
2.373324280E0,5.748000145E0,-7.118000031E0,5.249000072E0,1.054786385E1
2.378305272E0,6.021999836E0,-6.817999840E0,5.602000237E0,1.068325842E1
2.383286424E0,6.317999840E0,-6.803999901E0,6.085999966E0,1.110184364E1
2.388267654E0,6.592000008E0,-6.893000126E0,6.336999893E0,1.145100356E1
2.393248671E0,6.782999992E0,-6.972000122E0,6.215000153E0,1.154314089E1
2.398229823E0,6.999000072E0,-7.022999763E0,5.933000088E0,1.155461024E1
2.403210748E0,7.272999763E0,-6.880000114E0,5.493999958E0,1.141993707E1
2.408192001E0,7.669000149E0,-6.586999893E0,4.927000046E0,1.124621982E1
2.413173003E0,8.102000237E0,-6.344999790E0,4.362999916E0,1.117753096E1
2.418154174E0,8.522000313E0,-6.328999996E0,3.891999960E0,1.130612197E1
2.423135176E0,8.715999603E0,-6.421000004E0,3.542000055E0,1.139050721E1
2.428116328E0,8.557999611E0,-6.459000111E0,3.154999971E0,1.117640660E1
2.433097330E0,8.123999596E0,-6.436999798E0,2.706000090E0,1.071245874E1
2.438078482E0,7.534999847E0,-6.320000172E0,2.286000013E0,1.009675299E1
2.443059484E0,6.936999798E0,-6.001999855E0,2.010999918E0,9.390957839E0
2.448040631E0,6.572000027E0,-5.653999805E0,1.879999995E0,8.870924311E0
2.453021861E0,6.522999763E0,-5.506999969E0,1.799000025E0,8.724275080E0
2.458002858E0,6.903999805E0,-5.658999920E0,1.649999976E0,9.078105162E0
2.462984010E0,7.618999958E0,-6.018000126E0,1.373000026E0,9.805641996E0
2.467965012E0,8.451000214E0,-6.390999794E0,9.499999881E-1,1.063798773E1
2.472946169E0,9.291999817E0,-6.643000126E0,4.950000048E-1,1.143309828E1
2.477927171E0,1.018799973E1,-6.754000187E0,5.099999905E-2,1.222352068E1
2.482908323E0,1.116899967E1,-6.829999924E0,-2.989999950E-1,1.309522255E1
2.487889325E0,1.229500008E1,-6.918000221E0,-4.650000036E-1,1.411531009E1
2.492870477E0,1.202200031E1,-9.769999981E-1,3.970000148E-1,1.206816596E1
2.497851464E0,1.321899986E1,-1.087000012E0,4.269999862E-1,1.327048814E1
2.502832616E0,1.423799992E1,-1.223999977E0,4.779999852E-1,1.429850697E1
2.507813618E0,1.499400043E1,-1.314000010E0,6.359999776E-1,1.506489764E1
2.512794765E0,1.547700024E1,-1.317000031E0,9.160000086E-1,1.555991907E1
2.517775767E0,1.578299999E1,-1.258000016E0,1.220999956E0,1.588006592E1
2.522756995E0,1.596000004E1,-1.182999969E0,1.472000003E0,1.607133704E1
2.527738151E0,1.602700043E1,-1.179999948E0,1.580000043E0,1.614786496E1
2.532719074E0,1.599600029E1,-1.294999957E0,1.572000027E0,1.612514292E1
2.537700294E0,1.580599976E1,-1.450999975E0,1.539000034E0,1.594689783E1
2.542681296E0,1.541899967E1,-1.498000026E0,1.513000011E0,1.556530514E1
2.547662448E0,1.498700047E1,-1.419000030E0,1.542000055E0,1.513279578E1
2.552643430E0,1.464999962E1,-1.282999992E0,1.654000044E0,1.479879367E1
2.557624582E0,1.440600014E1,-1.143000007E0,1.763000011E0,1.455841537E1
2.562605580E0,1.415999985E1,-9.940000176E-1,1.891999960E0,1.432038043E1
2.567586732E0,1.373900032E1,-8.740000129E-1,1.981999993E0,1.390871417E1
2.572567734E0,1.314700031E1,-8.169999719E-1,2.072999954E0,1.333448293E1
2.577548876E0,1.240900040E1,-7.760000229E-1,2.069000006E0,1.260421469E1
2.582530106E0,1.157499981E1,-7.149999738E-1,2.056999922E0,1.177807685E1
2.587511108E0,1.067800045E1,-6.230000257E-1,2.115999937E0,1.090345259E1
2.592492250E0,9.699999809E0,-4.909999967E-1,2.229000092E0,9.964914385E0
2.597473252E0,8.826000214E0,-3.210000098E-1,2.384000063E0,9.147938406E0
2.602454404E0,8.081999779E0,-2.150000036E-1,2.533999920E0,8.472667881E0
2.607435392E0,7.399000168E0,-1.280000061E-1,2.651999950E0,7.860959943E0
2.612416544E0,6.755000114E0,-5.799999833E-2,2.684999943E0,7.269292623E0
2.617397536E0,6.173999786E0,0.000000000E0,2.762000084E0,6.763646785E0
2.622378688E0,5.734000206E0,4.300000146E-2,2.907000065E0,6.428939006E0
2.627359919E0,5.362999916E0,5.700000003E-2,3.046999931E0,6.168405441E0
2.632340806E0,4.997000217E0,3.299999982E-2,3.207999945E0,5.938212174E0
2.637321806E0,4.506000042E0,-2.099999972E-2,3.328000069E0,5.601790949E0
2.642303035E0,3.898999929E0,-5.400000140E-2,3.420000076E0,5.186667232E0
2.647284174E0,3.191999912E0,-8.799999952E-2,3.525000095E0,4.756283540E0
2.652265176E0,2.934999943E0,4.120000005E-1,1.904000044E0,3.522667289E0
2.657246328E0,2.339999914E0,3.849999905E-1,1.654999971E0,2.891859176E0
2.662227315E0,1.898000002E0,3.240000010E-1,1.322999954E0,2.336173985E0
2.667208467E0,1.539000034E0,1.679999977E-1,1.026999950E0,1.857814308E0
2.672189469E0,1.087000012E0,4.600000009E-2,7.189999819E-1,1.304088188E0
2.677170631E0,5.659999847E-1,-1.999999955E-2,3.490000069E-1,6.652495679E-1
2.682151862E0,5.600000173E-2,-6.199999899E-2,1.999999955E-2,8.590692667E-2
2.687132864E0,-4.510000050E-1,-1.420000046E-1,-2.860000134E-1,5.525948004E-1
2.692114021E0,-9.309999943E-1,-2.649999857E-1,-5.000000000E-1,1.089488863E0
2.697095023E0,-1.496000051E0,-3.959999979E-1,-7.149999738E-1,1.704716139E0
2.702076175E0,-2.138000011E0,-5.450000167E-1,-1.003000021E0,2.423649750E0
2.707057172E0,-2.747999907E0,-6.819999814E-1,-1.317000031E0,3.122677784E0
2.712038323E0,-3.285000086E0,-1.019000053E0,-1.575000048E0,3.782884062E0
2.717019554E0,-3.792000055E0,-1.348000050E0,-1.937000036E0,4.466356199E0
2.722000479E0,-4.238999844E0,-1.766000032E0,-2.127000093E0,5.060830484E0
2.726981479E0,-4.352000237E0,-2.658999920E0,-2.500000000E0,5.679805158E0
2.731962626E0,-3.730000019E0,-4.322000027E0,-3.003000021E0,6.450627373E0
2.736943857E0,-4.448999882E0,-4.199999809E0,-2.433000088E0,6.584306172E0
2.741924859E0,-5.342000008E0,-3.700999975E0,-2.137000084E0,6.841135451E0
2.746906006E0,-6.177000046E0,-3.023000002E0,-2.441999912E0,7.297754596E0
2.751887008E0,-6.828000069E0,-2.377000093E0,-3.063999891E0,7.852376055E0
2.756868174E0,-7.201000214E0,-2.025000095E0,-3.552999973E0,8.281234103E0
2.761849176E0,-7.426000118E0,-2.055000067E0,-3.677999973E0,8.537926378E0
2.766830328E0,-7.369999886E0,-2.846999884E0,-3.701999903E0,8.725085096E0
2.771811568E0,-7.401999950E0,-3.555000067E0,-3.355999947E0,8.870758952E0
2.776792570E0,-7.328000069E0,-4.215000153E0,-2.536000013E0,8.825933795E0
2.781773741E0,-6.324999809E0,-6.370999813E0,-1.758000016E0,9.147995696E0
2.786754743E0,-6.962999821E0,-6.686999798E0,-9.419999719E-1,9.699829728E0
2.791735895E0,-8.444999695E0,-7.013999939E0,3.939999938E-1,1.098496477E1
2.796716897E0,-7.309000015E0,-8.001999855E0,2.226000071E0,1.106384017E1
2.801698049E0,-5.846000195E0,-8.682999611E0,3.637000084E0,1.108142455E1
2.806679046E0,-4.216000080E0,-9.104999542E0,4.644000053E0,1.105632895E1
2.811660198E0,-2.579999924E0,-9.310000420E0,5.307000160E0,1.102255679E1
2.816641205E0,-9.760000110E-1,-9.286999702E0,5.690999985E0,1.093564906E1
2.821622434E0,4.990000129E-1,-9.125000000E0,5.867000103E0,1.085984881E1
2.826603589E0,1.817999959E0,-8.857000351E0,5.855999947E0,1.077238666E1
2.831584565E0,2.964999914E0,-8.508999825E0,5.731999874E0,1.067942532E1
2.836565717E0,4.010000229E0,-8.074999809E0,5.518000126E0,1.057043278E1
2.841546719E0,4.887000084E0,-7.635000229E0,5.269000053E0,1.048514949E1
2.846527900E0,5.649000168E0,-7.185999870E0,4.956999779E0,1.039815579E1
2.851508902E0,6.256999969E0,-6.737999916E0,4.655000210E0,1.030629509E1
2.856490150E0,6.826000214E0,-6.265999794E0,4.347000122E0,1.023491292E1
2.861471306E0,7.290999889E0,-5.818999767E0,4.019000053E0,1.015735197E1
2.866452306E0,7.649000168E0,-5.390999794E0,3.701999903E0,1.006354240E1
2.871433472E0,7.955999851E0,-5.005000114E0,3.440000057E0,1.000907389E1
2.876414474E0,8.222999573E0,-4.606999874E0,3.155999899E0,9.939944928E0
2.881395612E0,8.428000450E0,-4.247000217E0,2.864000082E0,9.862590882E0
2.886376614E0,8.597000122E0,-3.904999971E0,2.641000032E0,9.804708922E0
2.891357765E0,8.729000092E0,-3.627000093E0,2.441999912E0,9.762885631E0
2.896338767E0,8.840999603E0,-3.354000092E0,2.256000042E0,9.721220437E0
2.901319919E0,8.928000450E0,-3.105000019E0,2.073999882E0,9.677380465E0
2.906301140E0,8.986000061E0,-2.900000095E0,1.919999957E0,9.635590147E0
2.911282142E0,9.039999962E0,-2.724999905E0,1.819000006E0,9.615403518E0
2.916263065E0,9.062999725E0,-2.532999992E0,1.738000035E0,9.569466919E0
2.921244294E0,9.090000153E0,-2.355000019E0,1.679999948E0,9.539210014E0
2.926225448E0,9.111000061E0,-2.194999933E0,1.649000049E0,9.515647533E0
2.931206455E0,2.319000006E0,7.815000057E0,1.490000010E0,8.286862310E0
2.936187607E0,2.055000067E0,7.894000053E0,1.516000032E0,8.296777580E0
2.941168609E0,1.792999983E0,7.958000183E0,1.527999997E0,8.299361412E0
2.946149746E0,1.521999955E0,7.997000217E0,1.557000041E0,8.288108679E0
2.951130976E0,1.271000028E0,8.053000450E0,1.588000059E0,8.305901607E0
2.956111983E0,1.001999974E0,8.100000381E0,1.618000031E0,8.320572951E0
2.961093135E0,7.189999819E-1,8.121999741E0,1.633000016E0,8.315679757E0
2.966074137E0,4.589999914E-1,8.145000458E0,1.646000028E0,8.322321163E0
2.971055308E0,1.909999996E-1,8.170000076E0,1.672000051E0,8.341520630E0
2.976036310E0,-7.000000030E-2,8.185000420E0,1.703999996E0,8.360786318E0
2.981017462E0,-3.420000076E-1,8.178999901E0,1.702999949E0,8.361412094E0
2.985998684E0,-6.290000081E-1,8.180000305E0,1.712000012E0,8.380870483E0
2.990979686E0,-8.840000033E-1,8.182999611E0,1.731999993E0,8.410871692E0
2.995960838E0,-1.159000039E0,8.161999702E0,1.743999958E0,8.426331117E0
3.000941840E0,-1.432999969E0,8.138999939E0,1.756000042E0,8.448688955E0
3.005922991E0,-1.710000038E0,8.102000237E0,1.746999979E0,8.462772412E0
3.010904002E0,-1.978000045E0,8.060000420E0,1.761999965E0,8.484146087E0
3.015885154E0,-2.239000082E0,8.005999565E0,1.758000016E0,8.497041512E0
3.020866156E0,-2.505000114E0,7.953999996E0,1.768000007E0,8.524492098E0
3.025847303E0,-2.767999887E0,7.897999763E0,1.764999986E0,8.553095848E0
3.030828534E0,-3.039000034E0,7.817999840E0,1.774999976E0,8.573637945E0
3.035809556E0,-3.308000088E0,7.760000229E0,1.769000053E0,8.619154792E0
3.040790708E0,-3.569999933E0,7.672999859E0,1.768000007E0,8.645556684E0
3.045771700E0,-3.815999985E0,7.589000225E0,1.741999984E0,8.671178942E0
3.050752852E0,-4.080999851E0,7.492000103E0,1.730000019E0,8.705028742E0
3.055733840E0,-4.341000080E0,7.403999805E0,1.703999996E0,8.750263470E0
3.060715069E0,-4.584000111E0,7.285999775E0,1.672000051E0,8.768947138E0
3.065696238E0,-4.835000038E0,7.171000004E0,1.646999955E0,8.804151025E0
3.070677238E0,-5.076000214E0,7.053999901E0,1.613999963E0,8.839099991E0
3.075658390E0,-5.314000130E0,6.923999786E0,1.574000001E0,8.868925889E0
3.080639401E0,-5.551000118E0,6.795000076E0,1.552000046E0,8.910349740E0
3.085620553E0,-5.789999962E0,6.662000179E0,1.529000044E0,8.957911982E0
3.090601775E0,-6.019000053E0,6.519000053E0,1.491999984E0,8.997321117E0
3.095582700E0,-6.232999802E0,6.361999989E0,1.480999947E0,9.028770194E0
3.100563929E0,-6.458000183E0,6.203999996E0,1.445999980E0,9.071179541E0
3.105544969E0,-6.672999859E0,6.040999889E0,1.396000028E0,9.108865070E0
3.110526121E0,-6.881000042E0,5.862999916E0,1.363999963E0,9.142397141E0
3.115507123E0,-7.087999821E0,5.692999840E0,1.314000010E0,9.185672793E0
3.120488270E0,-7.293000221E0,5.524000168E0,1.245000005E0,9.233225606E0
3.125469272E0,-7.482999802E0,5.339000225E0,1.172999978E0,9.266937918E0
3.130450423E0,-7.668000221E0,5.153999805E0,1.106999993E0,9.305234568E0
3.135431650E0,-7.848999977E0,4.960000038E0,1.014000058E0,9.340053380E0
3.140412652E0,-8.026000023E0,4.763999939E0,9.470000267E-1,9.381320847E0
3.145393804E0,-8.189000130E0,4.561999798E0,8.809999824E-1,9.415292149E0
3.150374820E0,-8.347000122E0,4.349999905E0,7.910000086E-1,9.445665208E0
3.155355972E0,-8.513999939E0,4.146999836E0,7.120000124E-1,9.496986186E0
3.160337203E0,-8.668000221E0,3.926000118E0,6.409999728E-1,9.537221070E0
3.165318186E0,-8.060000420E0,4.704999924E0,9.549999833E-1,9.381506063E0
3.170299338E0,-8.222999573E0,4.505000114E0,8.930000067E-1,9.418609081E0
3.175280340E0,-8.381999969E0,4.300000191E0,8.029999733E-1,9.454773085E0
3.180261467E0,-8.545000076E0,4.085999966E0,7.269999981E-1,9.499523726E0
3.185242469E0,-8.685000420E0,3.881000042E0,6.510000229E-1,9.534945970E0
3.190223698E0,-8.829999924E0,3.654000044E0,5.770000219E-1,9.573585744E0
3.195204647E0,-8.967000008E0,3.427000046E0,5.040000081E-1,9.612774545E0
3.200185799E0,-9.092000008E0,3.207999945E0,4.370000064E-1,9.651253638E0
3.205167035E0,-9.314999580E0,2.858000040E0,2.689999938E-1,9.747294107E0
3.210148037E0,-4.594499969E1,-6.168000031E1,-4.772399902E1,9.051489114E1
3.215129217E0,-8.728199768E1,-7.446700287E1,-5.126200104E1,1.256633375E2
3.220110219E0,-8.733999634E1,-7.458599854E1,5.140999794E0,1.149685871E2
3.225091371E0,-8.735399628E1,-7.461799622E1,-5.198300171E1,1.260983683E2
3.230072616E0,-8.731800079E1,-7.455599976E1,-3.375500107E1,1.196763571E2
3.235053618E0,-8.721900177E1,-7.437100220E1,-1.725200081E1,1.159130354E2
3.240034770E0,-6.426899719E1,-4.637200165E1,-2.518099976E1,8.315617407E1
3.245015772E0,-3.991199875E1,-2.556800079E1,-1.945299911E1,5.123582227E1
3.249996924E0,-2.016200066E1,-1.117899990E1,-7.225999832E0,2.415970577E1
3.254977931E0,-1.223600006E1,-6.434000015E0,-1.131999969E0,1.387074178E1
3.259959083E0,-1.087600040E1,-5.308000088E0,-1.508000016E0,1.219574982E1
3.264940085E0,-9.706999779E0,-4.377999783E0,-1.457000017E0,1.074781726E1
3.269921237E0,-9.369999886E0,-4.186999798E0,-1.259999990E0,1.033999348E1
3.274902468E0,-9.085000038E0,-4.026000023E0,-1.013000011E0,9.988597044E0
3.279883470E0,-8.809000015E0,-3.887000084E0,-7.170000076E-1,9.655119882E0
3.284864588E0,-8.576999664E0,-3.753000021E0,-4.149999917E-1,9.371347683E0
3.289845590E0,-8.388999939E0,-3.664999962E0,-7.100000232E-2,9.154921392E0
3.294826731E0,-8.239000320E0,-3.595999956E0,2.750000060E-1,8.993773789E0
3.299807962E0,-8.126999855E0,-3.569000006E0,6.150000095E-1,8.897421688E0
3.304788964E0,-8.074000359E0,-3.562000036E0,9.810000062E-1,8.879171530E0
3.309769902E0,-8.059000015E0,-3.592999935E0,1.304999948E0,8.919649917E0
3.314751131E0,-8.060000420E0,-3.642999887E0,1.646000028E0,8.996908971E0
3.319732285E0,-8.116999626E0,-3.736999989E0,1.998999953E0,9.156792706E0
3.324713291E0,-8.206999779E0,-3.851000071E0,2.342999935E0,9.363476684E0
3.329694443E0,-8.352000237E0,-4.012000084E0,2.674999952E0,9.644048806E0
3.334675450E0,-8.515999794E0,-4.184000015E0,2.997999907E0,9.950684000E0
3.339656679E0,-8.732999802E0,-4.388999939E0,3.273999929E0,1.030765160E1
3.344637835E0,-8.980999947E0,-4.606999874E0,3.532000065E0,1.069382216E1
3.349618826E0,-9.255000114E0,-4.856999874E0,3.736999989E0,1.110002900E1
3.354599977E0,-8.758000374E0,-4.434999943E0,3.880000114E0,1.055586074E1
3.359580974E0,-9.111000061E0,-4.714000225E0,4.105000019E0,1.104912419E1
3.364562126E0,-9.493000031E0,-5.013999939E0,4.293000221E0,1.156231360E1
3.369543357E0,-9.911999702E0,-5.335000038E0,4.436999798E0,1.209945993E1
3.374524344E0,-1.035799980E1,-5.656000137E0,4.547999859E0,1.264764010E1
3.379505496E0,-1.082600021E1,-5.984000206E0,4.572000027E0,1.318763524E1
3.384486508E0,-1.130799961E1,-6.315000057E0,4.565999985E0,1.373311461E1
3.389467660E0,-1.179899979E1,-6.644000053E0,4.489999771E0,1.426601663E1
3.394448881E0,-1.230300045E1,-6.969999790E0,4.372000217E0,1.480064536E1
3.399429806E0,-1.280599976E1,-7.307000160E0,4.177000046E0,1.532426868E1
3.404411034E0,-1.332100010E1,-7.602000237E0,3.928999901E0,1.583276639E1
3.409392055E0,-1.380200005E1,-7.906000137E0,3.625999928E0,1.631404055E1
3.414373207E0,-1.426599979E1,-8.177000046E0,3.240999937E0,1.675965872E1
3.419354195E0,-1.455900002E1,-9.913000107E0,3.941999912E0,1.804913892E1
3.424335347E0,-1.496700001E1,-1.019400024E1,3.405999899E0,1.842632805E1
3.429316578E0,-1.533500004E1,-1.043000031E1,2.813999891E0,1.875808434E1
3.434297555E0,-1.561800003E1,-1.063099957E1,2.167000055E0,1.901672858E1
3.439278707E0,-1.582800007E1,-1.081400013E1,1.478999972E0,1.922643040E1
3.444259709E0,-1.595699978E1,-1.093799973E1,7.659999728E-1,1.936110627E1
3.449240842E0,-1.601799965E1,-1.104500008E1,9.999999776E-3,1.945683529E1
3.454221844E0,-1.595800018E1,-1.110299969E1,-7.229999900E-1,1.945397391E1
3.459203062E0,-1.581299973E1,-1.104500008E1,-1.542000055E0,1.934995481E1
3.464184218E0,-1.555200005E1,-1.097299957E1,-2.349999905E0,1.917795413E1
3.469165218E0,-1.518599987E1,-1.086499977E1,-3.137000084E0,1.893419081E1
3.474146375E0,-1.469799995E1,-1.072000027E1,-3.921999931E0,1.860998903E1
3.479127377E0,-1.410099983E1,-1.056700039E1,-4.664000034E0,1.822779717E1
3.484108601E0,-1.339799976E1,-1.041800022E1,-5.368000031E0,1.780046490E1
3.489089526E0,-1.258800030E1,-1.024899960E1,-6.013999939E0,1.731091966E1
3.494070764E0,-1.168900013E1,-1.008199978E1,-6.593999863E0,1.678571648E1
3.499051918E0,-1.013199997E1,-8.050999641E0,-8.401000023E0,1.542896043E1
3.504032920E0,-9.052000046E0,-7.881000042E0,-8.748999596E0,1.485240251E1
3.509014072E0,-7.940000057E0,-7.743000031E0,-9.017999649E0,1.429412355E1
3.513995074E0,-6.783999920E0,-7.613999844E0,-9.225000381E0,1.375122833E1
3.518976302E0,-5.611999989E0,-7.531000137E0,-9.315999985E0,1.322869467E1
3.523957444E0,-4.425000191E0,-7.460000038E0,-9.352999687E0,1.275581555E1
3.528938444E0,-3.226999998E0,-7.420000076E0,-9.300999641E0,1.232795703E1
3.533919596E0,-2.053999901E0,-7.394000053E0,-9.177000046E0,1.196275396E1
3.538900593E0,-9.169999957E-1,-7.396999836E0,-8.968999863E0,1.166188038E1
3.543881822E0,2.010000050E-1,-7.423999786E0,-8.682000160E0,1.142511709E1
3.548862978E0,1.240000010E0,-7.454999924E0,-8.359999657E0,1.126961482E1
3.553843988E0,2.276000023E0,-7.497000217E0,-7.953999996E0,1.116473485E1
3.558825140E0,3.216000080E0,-7.635000229E0,-7.459000111E0,1.114776066E1
3.563806142E0,4.090000153E0,-7.770999908E0,-6.931000233E0,1.118728318E1
3.568787302E0,4.910999775E0,-7.903999805E0,-6.335000038E0,1.125714694E1
3.573768533E0,5.649000168E0,-8.027999878E0,-5.710999966E0,1.135673833E1
3.578749458E0,6.323999882E0,-8.138999939E0,-5.063000202E0,1.148347794E1
3.583730692E0,6.947000027E0,-8.232000351E0,-4.381000042E0,1.162840490E1
3.588711694E0,7.475999832E0,-8.314000130E0,-3.709000111E0,1.178006169E1
3.593692846E0,7.947000027E0,-8.362999916E0,-3.012000084E0,1.192336872E1
3.598673848E0,8.342000008E0,-8.387999535E0,-2.302999973E0,1.205202511E1
3.603655000E0,8.663999557E0,-8.395999908E0,-1.592000008E0,1.216931250E1
3.608636231E0,8.961999893E0,-8.364000320E0,-8.920000196E-1,1.229103769E1
3.613617233E0,9.182000160E0,-8.307000160E0,-1.930000037E-1,1.238356280E1
3.618598385E0,9.357999802E0,-8.232999802E0,5.170000196E-1,1.247484409E1
3.623579358E0,9.468000412E0,-8.126999855E0,1.189000010E0,1.253414853E1
3.628560509E0,9.531999588E0,-8.000000000E0,1.838000059E0,1.257923926E1
3.633541511E0,9.571000099E0,-7.833000183E0,2.444999933E0,1.260705990E1
3.638522668E0,9.536999702E0,-7.637000084E0,3.030999899E0,1.258829194E1
3.643503899E0,9.496999741E0,-7.414999962E0,3.581000090E0,1.256975696E1
3.648484901E0,9.416000366E0,-7.165999889E0,4.094999790E0,1.252124757E1
3.653466043E0,9.302000046E0,-6.906000137E0,4.600999832E0,1.246552214E1
3.658447045E0,9.151000023E0,-6.598000050E0,5.061999798E0,1.236520311E1
3.663428188E0,8.996000290E0,-6.280000210E0,5.494999886E0,1.227034831E1
3.668409419E0,8.800000191E0,-5.935999870E0,5.888000011E0,1.213856013E1
3.673390435E0,8.592000008E0,-5.566999912E0,6.257999897E0,1.199902141E1
3.678371586E0,8.369999886E0,-5.179999828E0,6.603000164E0,1.185280167E1
3.683352588E0,8.123999596E0,-4.783999920E0,6.906000137E0,1.168669596E1
3.688333735E0,7.849999905E0,-4.370999813E0,7.198999882E0,1.151319839E1
3.693314737E0,7.578999996E0,-3.940000057E0,7.462999821E0,1.134289239E1
3.698295966E0,7.278999805E0,-3.493999958E0,7.691999912E0,1.115162484E1
3.703277132E0,8.088000298E0,-3.704999924E0,6.941999912E0,1.128424282E1
3.708258132E0,7.804999828E0,-3.323999882E0,7.197000027E0,1.112491829E1
3.713239284E0,7.524000168E0,-2.924999952E0,7.431000233E0,1.097205394E1
3.718220281E0,7.228000164E0,-2.520999908E0,7.639999866E0,1.081522191E1
3.723201433E0,6.906000137E0,-2.125000000E0,7.829999924E0,1.065445267E1
3.728182653E0,6.587999821E0,-1.725999951E0,7.985000134E0,1.049481037E1
3.733163656E0,6.265999794E0,-1.320999980E0,8.109000206E0,1.033265110E1
3.738144807E0,5.938000202E0,-9.259999990E-1,8.237000465E0,1.019634734E1
3.743125800E0,5.585000038E0,-5.329999924E-1,8.326999664E0,1.004067915E1
3.748106952E0,5.243000031E0,-1.539999992E-1,8.380000114E0,9.886210965E0
3.753088187E0,4.908999920E0,2.129999995E-1,8.395999908E0,9.728127450E0
3.758069189E0,4.563000202E0,5.720000267E-1,8.425000191E0,9.598373982E0
3.763050341E0,4.218999863E0,9.160000086E-1,8.418000221E0,9.460536115E0
3.768031353E0,3.882999897E0,1.253000021E0,8.383999825E0,9.324116597E0
3.773012505E0,3.552000046E0,1.565000057E0,8.350000381E0,9.208063633E0
3.777993736E0,3.217999935E0,1.858000040E0,8.362000465E0,9.150450236E0
3.782974661E0,3.072999954E0,2.865000010E0,7.638999939E0,8.718134768E0
3.787955889E0,-4.304600143E1,4.148699951E1,7.281800079E1,9.421566010E1
3.792936891E0,-7.248100281E1,-7.125099945E1,8.183899689E1,1.304906974E2
3.797918043E0,-7.227400208E1,4.780899811E1,-7.399400330E1,1.139488666E2
3.802899045E0,8.394699860E1,-2.819000053E1,8.408899689E1,1.221177059E2
3.807880206E0,-2.055599976E1,-1.974200058E1,3.759000063E0,2.874762241E1
3.812861437E0,-2.001000023E1,-1.986800003E1,5.327000141E0,2.869694173E1
3.817842439E0,-2.145299911E1,-1.916500092E1,9.003999710E0,3.014299988E1
3.822823572E0,-2.475399971E1,-1.649900055E1,2.690800095E1,4.011256705E1
3.827804574E0,-2.725099945E1,-8.371999741E0,7.003700256E1,7.561672486E1
3.832785818E0,-1.970100021E1,-4.019000053E0,3.873799896E1,4.364532431E1
3.837766973E0,-1.453899956E1,-4.118999958E0,1.184799957E1,1.920218120E1
3.842747958E0,-1.519799995E1,-3.640000105E0,8.741000175E0,1.790625275E1
3.847729110E0,-1.604899979E1,-3.135999918E0,8.244999886E0,1.831351721E1
3.852710112E0,-1.680800056E1,-2.654000044E0,7.660999775E0,1.866128390E1
3.857691376E0,-1.742000008E1,-2.194999933E0,6.797999859E0,1.882783125E1
3.862672301E0,-1.789200020E1,-1.774999976E0,5.939000130E0,1.893531142E1
3.867653530E0,-1.818700027E1,-1.376000047E0,4.940999985E0,1.889639743E1
3.872634722E0,-1.833099937E1,-1.021999955E0,3.828999996E0,1.875449981E1
3.877615724E0,-1.828100014E1,-7.440000176E-1,2.742000103E0,1.850046125E1
3.882596866E0,-1.806299973E1,-5.189999938E-1,1.547999978E0,1.813663762E1
3.887577868E0,-1.767200089E1,-3.849999905E-1,4.140000045E-1,1.768104172E1
3.892559097E0,-1.712400055E1,-3.070000112E-1,-7.450000048E-1,1.714294808E1
3.897540243E0,-1.642099953E1,-3.109999895E-1,-1.884999990E0,1.653176250E1
3.902521243E0,-1.557499981E1,-3.860000074E-1,-2.963000059E0,1.585903479E1
3.907502395E0,-1.463199997E1,-5.509999990E-1,-3.984999895E0,1.517495464E1
3.912483621E0,-1.358100033E1,-8.000000119E-1,-4.920000076E0,1.446685766E1
3.917464623E0,-1.245800018E1,-1.118000031E0,-5.767000198E0,1.377352475E1
3.922445789E0,-1.128499985E1,-1.508999944E0,-6.520999908E0,1.312066089E1
3.927426791E0,-1.005700016E1,-1.952999949E0,-7.130000114E0,1.248176120E1
3.932407943E0,-8.836999893E0,-2.448999882E0,-7.619999886E0,1.192285896E1
3.937389174E0,-7.638000011E0,-2.960000038E0,-7.965000153E0,1.142549219E1
3.942370176E0,-6.434999943E0,-3.479000092E0,-8.175999641E0,1.097085393E1
3.947351332E0,-5.309000015E0,-4.024000168E0,-8.251000404E0,1.060457761E1
3.952332334E0,-4.236000061E0,-4.551000118E0,-8.222000122E0,1.030808346E1
3.957313486E0,-1.822999954E0,-4.506999969E0,-8.373000145E0,9.682123165E0
3.962294488E0,-9.100000262E-1,-5.006999969E0,-7.986999989E0,9.470497218E0
3.967275640E0,-9.300000221E-2,-5.500000000E0,-7.491000175E0,9.293746964E0
3.972256838E0,5.730000138E-1,-5.941999912E0,-6.899000168E0,9.123151609E0
3.977237840E0,1.138000011E0,-6.363999844E0,-6.211999893E0,8.965739273E0
3.982218992E0,1.541000009E0,-6.770999908E0,-5.452000141E0,8.828670700E0
3.987199994E0,1.819000006E0,-7.129000187E0,-4.647999763E0,8.702603432E0
3.992181256E0,1.950999975E0,-7.467000008E0,-3.780999899E0,8.594093917E0
3.997162411E0,1.907999992E0,-7.772999763E0,-2.875999928E0,8.504784823E0
4.002143335E0,1.730000019E0,-8.055000305E0,-1.960000038E0,8.468620320E0
4.007124554E0,1.389000058E0,-8.328000069E0,-1.059999943E0,8.509318785E0
4.012105556E0,8.970000148E-1,-8.590000153E0,-1.439999938E-1,8.637907597E0
4.017086708E0,2.529999912E-1,-8.847999573E0,7.319999933E-1,8.881831423E0
4.022067719E0,-5.260000229E-1,-9.109000206E0,1.557999969E0,9.256237069E0
4.027048948E0,-1.437999964E0,-9.381999969E0,2.349999905E0,9.778152529E0
4.032030080E0,-1.315000057E0,-9.156999588E0,2.785000086E0,9.661060609E0
4.037011080E0,-2.371000051E0,-9.510000229E0,3.533999920E0,1.041877637E1
4.041992232E0,-3.573999882E0,-9.916999817E0,4.184000015E0,1.134134986E1
4.046973244E0,-4.815999985E0,-1.034000015E1,4.715000153E0,1.234263689E1
4.051954472E0,-6.090000153E0,-1.080500031E1,5.129000187E0,1.342172777E1
4.056935628E0,-7.402999878E0,-1.129199982E1,5.432000160E0,1.455404730E1
4.061916608E0,-8.685000420E0,-1.182299995E1,5.580999851E0,1.569586313E1
4.066897760E0,-9.939999580E0,-1.236400032E1,5.600999832E0,1.682389059E1
4.071878991E0,-1.114599991E1,-1.293999958E1,5.511000156E0,1.794569658E1
4.076859916E0,-1.226799965E1,-1.350899982E1,5.274000168E0,1.899505118E1
4.081841145E0,-1.329599953E1,-1.407699966E1,4.929999828E0,1.998125174E1
4.086822152E0,-1.420600033E1,-1.463700008E1,4.478000164E0,2.088312003E1
4.091803304E0,-1.527900028E1,-1.346399975E1,6.171000004E0,2.127929463E1
4.096784306E0,-1.608799934E1,-1.402400017E1,5.540999889E0,2.204992026E1
4.101765458E0,-1.676499939E1,-1.453600025E1,4.828999996E0,2.270858315E1
4.106746688E0,-1.731200027E1,-1.499800014E1,4.053999901E0,2.326113233E1
4.111727699E0,-1.774300003E1,-1.541600037E1,3.200999975E0,2.372158338E1
4.116708851E0,-1.803199959E1,-1.574800014E1,2.328000069E0,2.405352577E1
4.121689848E0,-1.820100021E1,-1.604100037E1,1.442000031E0,2.430369243E1
4.126671077E0,-1.826099968E1,-1.624399948E1,5.600000024E-1,2.444678360E1
4.131652238E0,-1.819799995E1,-1.638199997E1,-2.879999876E-1,2.448714090E1
4.136633238E0,-2.456000090E0,1.242500019E1,7.190599823E1,7.301291083E1
4.141614390E0,-3.582600021E1,-3.240800095E1,3.081399918E1,5.729994208E1
4.146595396E0,-4.179399872E1,-4.299900055E1,4.393000126E0,6.012446114E1
4.151576625E0,-6.685800171E1,-5.108399963E1,-7.503700256E1,1.127391643E2
4.156557775E0,-6.989099884E1,-3.571699905E1,-7.654799652E1,1.096359955E2
4.161538775E0,-3.764099884E1,-1.435799980E1,8.041999817E0,4.108126961E1
4.166519927E0,-3.095299911E1,-1.703899956E1,7.831600189E1,8.591747094E1
4.171500944E0,-1.164799976E1,-1.064799976E1,3.292699814E1,3.651360026E1
4.176482173E0,-9.201000214E0,-6.467000008E0,-1.589999944E-1,1.124747861E1
4.181463098E0,-9.529999733E0,-6.657999992E0,3.580000103E-1,1.163090808E1
4.186444332E0,-9.498999596E0,-6.548999786E0,9.829999804E-1,1.157958032E1
4.191425486E0,-9.506999969E0,-6.495999813E0,1.169000030E0,1.157357434E1
4.196406488E0,-9.468999863E0,-6.390999794E0,1.478999972E0,1.151930023E1
4.201387602E0,-9.444999695E0,-6.315999985E0,1.794999957E0,1.150312566E1
4.206368604E0,-9.407999992E0,-6.222000122E0,2.017999887E0,1.145844985E1
4.211349832E0,-9.272999763E0,-6.157999992E0,2.227999926E0,1.135224525E1
4.216330988E0,-8.180999756E0,-6.458000183E0,3.289999962E-1,1.042797988E1
4.221311983E0,-1.792000055E0,-1.020699978E1,-2.550099945E1,2.752626167E1
4.226293135E0,2.200999975E0,-1.729299927E1,-6.437500000E1,6.669357427E1
4.231274366E0,-7.986000061E0,-9.489000320E0,-2.180400085E1,2.508449277E1
4.236255396E0,-8.411999702E0,-4.420000076E0,-7.250000238E-1,9.530150298E0
4.241236548E0,-8.333999634E0,-3.766000032E0,2.934999943E0,9.604818104E0
4.246217550E0,-8.322999954E0,-3.742000103E0,3.278000116E0,9.696400248E0
4.251198766E0,-8.300999641E0,-3.746999979E0,3.240000010E0,9.666654227E0
4.256179691E0,-8.284000397E0,-3.769000053E0,3.328000069E0,9.690490619E0
4.261160895E0,-8.255999565E0,-3.789999962E0,3.269000053E0,9.654635668E0
4.266142048E0,-8.263999939E0,-3.872999907E0,3.068000078E0,9.628418756E0
4.271123050E0,-8.314999580E0,-4.361999989E0,1.253999949E0,9.473055357E0
4.276104206E0,-8.682999611E0,-5.434999943E0,-3.052999973E0,1.068899039E1
4.281085208E0,-9.623000145E0,-6.790999889E0,-8.553000450E0,1.455587950E1
4.286066442E0,-1.083500004E1,-8.123000145E0,-1.385499954E1,1.937372885E1
4.291047598E0,-1.169600010E1,-8.597999573E0,-1.422000027E1,2.032068952E1
4.296028598E0,-1.135999966E1,-7.853000164E0,-8.824999809E0,1.638901539E1
4.301009745E0,-1.059500027E1,-7.185999870E0,-3.892999887E0,1.338088461E1
4.305990976E0,-9.935999870E0,-6.999000072E0,-2.674000025E0,1.244429072E1
4.310971988E0,-9.156999588E0,-7.709000111E0,-6.625999928E0,1.368149112E1
4.315953139E0,-3.608999968E0,-6.703999996E0,2.330699921E1,2.451906827E1
4.320934141E0,-5.248000145E0,-5.955999851E0,-6.849900055E1,6.895743989E1
4.325915360E0,-6.488999844E0,-6.287000179E0,-4.029299927E1,4.129357432E1
4.330896285E0,-9.442000389E0,-4.310999870E0,-4.578000069E0,1.134434555E1
4.335877452E0,-9.064000130E0,-3.763999939E0,6.389999986E-1,9.835248593E0
4.340858683E0,-8.777999878E0,-3.451999903E0,1.174000025E0,9.505149196E0
4.345839685E0,-8.701000214E0,-3.147000074E0,-6.259999871E-1,9.273774322E0
4.350820837E0,-8.435999870E0,-2.832999945E0,-2.936000109E0,9.370809951E0
4.355801839E0,-7.764999866E0,-2.829999924E0,-2.326999903E0,8.585979912E0
4.360783077E0,-8.053000450E0,-3.039000034E0,1.720000058E-1,8.609060428E0
4.365764232E0,-8.295000076E0,-3.173000097E0,1.159000039E0,8.956463419E0
4.370745247E0,-8.260999680E0,-3.280999899E0,7.900000215E-1,8.923742269E0
4.375726399E0,-7.905000210E0,-3.427999973E0,4.670000076E-1,8.628922363E0
4.380707630E0,-7.435999870E0,-3.747999907E0,-1.052200031E1,1.341842345E1
4.385688521E0,-9.890999794E0,-3.776999950E0,-3.948099899E1,4.087599402E1
4.390669750E0,-1.250500011E1,-2.967000008E0,-1.805699921E1,2.216378436E1
4.395650752E0,-1.035499954E1,-2.854000092E0,-3.069999933E0,1.117122337E1
4.400631928E0,-8.748999596E0,-2.806999922E0,1.459999979E-1,9.189426450E0
4.405612930E0,-7.754000187E0,-2.811000109E0,6.959999800E-1,8.277116435E0
4.410594149E0,-7.337999821E0,-2.880000114E0,-7.500000298E-2,7.883290368E0
4.415575305E0,-7.425000191E0,-2.887000084E0,-2.881000042E0,8.471455516E0
4.420556305E0,-7.632999897E0,-2.782000065E0,-8.602000237E0,1.183201673E1
4.425537461E0,-8.760000229E0,-2.678999901E0,-1.333399963E1,1.617745934E1
4.430518463E0,-1.379999995E0,4.100000113E-2,-3.943000078E0,4.177718349E0
4.435499692E0,4.530000091E-1,2.660000026E-1,3.149999976E-1,6.125275570E-1
4.440480829E0,9.350000024E-1,3.799999878E-2,1.600000024E0,1.853555794E0
4.445461829E0,1.217000008E0,-1.469999999E-1,1.552999973E0,1.978511293E0
4.450442981E0,1.046000004E0,-2.730000019E-1,5.600000024E-1,1.217474851E0
4.455424212E0,6.230000257E-1,-1.209999993E-1,-5.379999876E-1,8.319940015E-1
4.460405137E0,2.179999948E-1,1.720000058E-1,-1.080999970E0,1.116095397E0
4.465386380E0,3.840000033E-1,2.419999987E-1,-4.889999926E-1,6.671888748E-1
4.470367382E0,7.870000005E-1,1.999999955E-2,2.469999939E-1,8.250927207E-1
4.475348533E0,8.209999800E-1,5.000000075E-2,3.089999855E-1,8.786478010E-1
4.480329511E0,5.889999866E-1,1.889999956E-1,-1.299999952E-1,6.320933328E-1
4.485310740E0,5.130000114E-1,2.189999968E-1,-3.750000000E-1,6.721272278E-1
4.490291906E0,6.140000224E-1,2.220000029E-1,-1.829999983E-1,6.780627022E-1
4.495272906E0,6.650000215E-1,1.519999951E-1,3.200000152E-2,6.829004519E-1
4.500254058E0,6.230000257E-1,1.250000000E-1,-3.400000185E-2,6.363254138E-1
4.505235298E0,5.809999704E-1,1.120000035E-1,-2.109999955E-1,6.281926174E-1
4.510216300E0,6.010000110E-1,6.700000167E-2,-1.580000073E-1,6.250232121E-1
4.515197452E0,6.370000243E-1,3.400000185E-2,-5.299999937E-2,6.401047032E-1
4.520178445E0,6.069999933E-1,1.400000043E-2,-8.900000155E-2,6.136497309E-1
4.525159673E0,5.879999995E-1,-2.000000095E-3,-1.539999992E-1,6.078355034E-1
4.530140819E0,6.029999852E-1,-3.500000015E-2,-1.209999993E-1,6.160154073E-1
4.535121819E0,6.110000014E-1,-6.199999899E-2,-9.899999946E-2,6.220659141E-1
4.540102942E0,6.039999723E-1,-6.400000304E-2,-1.110000014E-1,6.174406589E-1
4.545084173E0,5.849999785E-1,-8.699999750E-2,-1.379999965E-1,6.073203220E-1
4.550065098E0,5.950000286E-1,-1.030000001E-1,-1.140000001E-1,6.145160975E-1
4.555046327E0,6.069999933E-1,-1.030000001E-1,-9.700000286E-2,6.232712030E-1
4.560027329E0,5.920000076E-1,-1.180000007E-1,-1.169999987E-1,6.148796703E-1
4.565008476E0,5.799999833E-1,-1.270000041E-1,-1.070000008E-1,6.033058775E-1
4.569989478E0,5.799999833E-1,-1.449999958E-1,-1.169999987E-1,6.091912500E-1
4.574970630E0,5.830000043E-1,-1.449999958E-1,-1.120000035E-1,6.111121047E-1
4.579951846E0,5.820000172E-1,-1.519999951E-1,-1.220000014E-1,6.137687014E-1
4.584932848E0,5.730000138E-1,-1.580000073E-1,-1.270000041E-1,6.078009700E-1
4.589914038E0,5.680000186E-1,-1.580000073E-1,-1.030000001E-1,5.984956336E-1
4.594895040E0,5.120000243E-1,-1.360000074E-1,-1.120000035E-1,5.414647059E-1
4.599876269E0,1.099999994E-2,-6.000000052E-3,-9.399999678E-2,9.483142620E-2
4.604857425E0,8.000000380E-3,-9.999999776E-3,-9.600000083E-2,9.685040094E-2
4.609838425E0,1.799999923E-2,-1.999999955E-2,-1.010000035E-1,1.045227280E-1
4.614819577E0,8.000000380E-3,-9.999999776E-3,-9.099999815E-2,9.189667929E-2
4.619800822E0,1.000000047E-3,-1.300000027E-2,-8.699999750E-2,8.797158389E-2
4.624781824E0,1.000000047E-3,-1.000000047E-3,-9.600000083E-2,9.601041694E-2
4.629762980E0,1.300000027E-2,-9.999999776E-3,-9.600000083E-2,9.739096551E-2
4.634743982E0,1.499999966E-2,-1.300000027E-2,-8.699999750E-2,8.923564065E-2
4.639725134E0,6.000000052E-3,3.000000026E-3,-7.999999821E-2,8.028075557E-2
4.644706375E0,8.000000380E-3,0.000000000E0,-7.999999821E-2,8.039900323E-2
4.649687377E0,8.000000380E-3,-9.999999776E-3,-1.030000001E-1,1.037930635E-1
4.654668529E0,1.499999966E-2,-1.300000027E-2,-1.059999987E-1,1.078424765E-1
4.659649550E0,6.000000052E-3,-3.000000026E-3,-1.129999980E-1,1.131989380E-1
4.664630702E0,1.099999994E-2,-3.000000026E-3,-9.600000083E-2,9.667471313E-2
4.669611949E0,1.099999994E-2,-8.000000380E-3,-8.900000155E-2,9.003332872E-2
4.674592951E0,2.000000095E-3,-1.499999966E-2,-1.010000035E-1,1.021273749E-1
4.679574102E0,4.000000190E-3,-1.300000027E-2,-1.080000028E-1,1.088531149E-1
4.684555113E0,1.799999923E-2,-1.799999923E-2,-1.010000035E-1,1.041585362E-1
4.689536342E0,1.300000027E-2,-1.300000027E-2,-1.030000001E-1,1.046279123E-1
4.694517498E0,8.999999613E-3,-1.600000076E-2,-1.080000028E-1,1.095490786E-1
4.699498484E0,8.999999613E-3,-1.099999994E-2,-1.030000001E-1,1.039759588E-1
4.704479636E0,4.000000190E-3,-1.099999994E-2,-9.399999678E-2,9.472591723E-2
4.709460867E0,1.400000043E-2,-8.000000380E-3,-1.080000028E-1,1.091970724E-1
4.714441869E0,1.899999939E-2,-8.000000380E-3,-8.699999750E-2,8.940916926E-2
4.719423021E0,1.400000043E-2,-6.000000052E-3,-8.399999887E-2,8.536978284E-2
4.724404023E0,8.999999613E-3,-1.099999994E-2,-1.129999980E-1,1.138902961E-1
4.729385174E0,8.999999613E-3,-6.000000052E-3,-1.010000035E-1,1.015775600E-1
4.734366176E0,4.000000190E-3,-1.099999994E-2,-1.110000014E-1,1.116154125E-1
4.739347405E0,-2.000000095E-3,-2.700000070E-2,-1.080000028E-1,1.113418189E-1
4.744328561E0,4.999999888E-3,-1.999999955E-2,-9.399999678E-2,9.623408635E-2
4.749309575E0,1.200000010E-2,-3.000000026E-3,-9.600000083E-2,9.679359567E-2
4.754290727E0,1.200000010E-2,-8.000000380E-3,-9.600000083E-2,9.707728967E-2
4.759271958E0,2.000000095E-3,-8.000000380E-3,-9.600000083E-2,9.635351663E-2
4.764252960E0,1.499999966E-2,-1.000000047E-3,-1.030000001E-1,1.040913061E-1
4.769234112E0,7.000000216E-3,-3.000000026E-3,-9.600000083E-2,9.630161039E-2
4.774215114E0,4.999999888E-3,-6.000000052E-3,-1.010000035E-1,1.013015336E-1
4.779196246E0,-1.000000047E-3,-1.300000027E-2,-9.899999946E-2,9.985489423E-2
4.784177248E0,8.000000380E-3,-1.000000047E-3,-1.080000028E-1,1.083005107E-1
4.789158477E0,1.200000010E-2,-8.000000380E-3,-9.399999678E-2,9.509994429E-2
4.794139633E0,9.999999776E-3,-8.000000380E-3,-9.399999678E-2,9.486832662E-2
4.799120633E0,3.000000026E-3,-1.499999966E-2,-1.030000001E-1,1.041297269E-1
4.804101756E0,3.000000026E-3,-1.300000027E-2,-8.900000155E-2,8.999444585E-2
4.809082758E0,4.999999888E-3,-8.000000380E-3,-1.059999987E-1,1.064189820E-1
4.814063987E0,1.300000027E-2,-6.000000052E-3,-9.399999678E-2,9.508417009E-2
4.819045157E0,-1.000000047E-3,-6.000000052E-3,-9.600000083E-2,9.619251614E-2
4.824026157E0,8.000000380E-3,-6.000000052E-3,-8.900000155E-2,8.956003731E-2
4.829007380E0,6.000000052E-3,-1.300000027E-2,-9.600000083E-2,9.706183682E-2
4.833988536E0,8.000000380E-3,-1.099999994E-2,-1.110000014E-1,1.118302299E-1
4.838969536E0,3.000000026E-3,-8.000000380E-3,-1.030000001E-1,1.033537616E-1
4.843950655E0,8.000000380E-3,-1.200000010E-2,-8.900000155E-2,9.016096874E-2
4.848931886E0,9.999999776E-3,-1.499999966E-2,-1.030000001E-1,1.045657688E-1
4.853912888E0,9.999999776E-3,-8.000000380E-3,-9.899999946E-2,9.982484608E-2
4.858893810E0,1.499999966E-2,-9.999999776E-3,-1.010000035E-1,1.025962996E-1
4.863875039E0,1.799999923E-2,-1.700000092E-2,-1.080000028E-1,1.108016273E-1
4.868856179E0,4.000000190E-3,-1.200000010E-2,-1.059999987E-1,1.067520479E-1
4.873837181E0,-4.999999888E-3,-1.499999966E-2,-1.010000035E-1,1.022301360E-1
4.878818409E0,4.000000190E-3,-1.300000027E-2,-1.059999987E-1,1.068690776E-1
4.883799554E0,1.600000076E-2,-1.499999966E-2,-9.099999815E-2,9.360555367E-2
4.888780554E0,1.000000047E-3,-4.999999888E-3,-1.129999980E-1,1.131149838E-1
4.893761706E0,0.000000000E0,-1.499999966E-2,-9.899999946E-2,1.001299150E-1
4.898742952E0,6.000000052E-3,-1.700000092E-2,-1.030000001E-1,1.045657690E-1
4.903723954E0,8.999999613E-3,-1.300000027E-2,-9.899999946E-2,1.002546752E-1
4.908705115E0,7.000000216E-3,-1.499999966E-2,-1.059999987E-1,1.072846668E-1
4.913686117E0,1.600000076E-2,-3.000000026E-3,-1.010000035E-1,1.023034737E-1
4.918667346E0,8.999999613E-3,-9.999999776E-3,-9.600000083E-2,9.693812536E-2
4.923648487E0,1.400000043E-2,-7.000000216E-3,-9.099999815E-2,9.233633997E-2
4.928629488E0,8.999999613E-3,-3.000000026E-3,-1.030000001E-1,1.034359706E-1
4.933610639E0,8.999999613E-3,-7.000000216E-3,-1.010000035E-1,1.016415304E-1
4.938591870E0,8.999999613E-3,-9.999999776E-3,-1.180000007E-1,1.187644735E-1
4.943572872E0,7.000000216E-3,-4.999999888E-3,-1.080000028E-1,1.083420537E-1
4.948554043E0,2.000000095E-3,-3.000000026E-3,-1.110000014E-1,1.110585446E-1
4.953535045E0,7.000000216E-3,-8.000000380E-3,-1.010000035E-1,1.015578688E-1
4.958516197E0,4.999999888E-3,-9.999999776E-3,-9.600000083E-2,9.664884973E-2
4.963497214E0,4.999999888E-3,-1.200000010E-2,-1.150000021E-1,1.157324522E-1
4.968478443E0,9.999999776E-3,-1.200000010E-2,-1.129999980E-1,1.140745351E-1
4.973459599E0,1.200000010E-2,-1.499999966E-2,-9.600000083E-2,9.790301401E-2
4.978440589E0,1.700000092E-2,-4.999999888E-3,-1.010000035E-1,1.025426777E-1
4.983421740E0,0.000000000E0,-1.300000027E-2,-1.129999980E-1,1.137453277E-1
4.988402995E0,-1.000000047E-3,-1.300000027E-2,-1.030000001E-1,1.038219631E-1
4.993383997E0,3.000000026E-3,1.000000047E-3,-8.399999887E-2,8.405950160E-2
4.998365149E0,3.000000026E-3,-1.499999966E-2,-1.080000028E-1,1.090779565E-1
5.003346165E0,9.999999776E-3,-1.300000027E-2,-1.059999987E-1,1.072613618E-1
